File: UVVIS-Fluor/Sample-1-2/Amostra sem Rodamina-TM.txt
"RawData - Lente direita 029 lote 18 - Shimadzu.txt_162154.spc"
"Wavelength nm."	"T%"
190.00	-0.002
191.00	-0.038
192.00	-0.032
193.00	-0.018
194.00	-0.003
195.00	0.005
196.00	-0.018
197.00	-0.009
198.00	-0.002
199.00	-0.005
200.00	-0.005
201.00	0.005
202.00	0.002
203.00	0.009
204.00	-0.020
205.00	0.002
206.00	-0.006
207.00	0.000
208.00	0.005
209.00	-0.009
210.00	-0.002
211.00	0.009
212.00	0.006
213.00	0.000
214.00	0.005
215.00	0.000
216.00	0.000
217.00	-0.002
218.00	-0.006
219.00	-0.002
220.00	0.000
221.00	0.005
222.00	-0.003
223.00	0.002
224.00	-0.003
225.00	0.000
226.00	-0.005
227.00	0.006
228.00	-0.002
229.00	-0.003
230.00	0.000
231.00	0.000
232.00	0.000
233.00	-0.009
234.00	0.000
235.00	-0.002
236.00	-0.005
237.00	0.006
238.00	-0.002
239.00	0.002
240.00	0.003
241.00	0.000
242.00	0.017
243.00	0.002
244.00	-0.002
245.00	0.002
246.00	-0.008
247.00	0.002
248.00	-0.012
249.00	-0.006
250.00	-0.006
251.00	0.000
252.00	0.006
253.00	-0.012
254.00	-0.005
255.00	0.000
256.00	-0.003
257.00	0.000
258.00	0.000
259.00	0.003
260.00	-0.002
261.00	0.000
262.00	0.000
263.00	-0.015
264.00	0.003
265.00	0.006
266.00	0.009
267.00	0.012
268.00	0.015
269.00	0.000
270.00	-0.003
271.00	0.003
272.00	0.003
273.00	0.009
274.00	-0.006
275.00	0.011
276.00	-0.009
277.00	-0.017
278.00	-0.006
279.00	-0.018
280.00	0.008
281.00	0.014
282.00	-0.015
283.00	0.000
284.00	0.003
285.00	0.009
286.00	0.014
287.00	0.017
288.00	0.000
289.00	0.011
290.00	-0.011
291.00	-0.002
292.00	-0.012
293.00	0.002
294.00	0.009
295.00	0.003
296.00	-0.014
297.00	-0.009
298.00	-0.002
299.00	0.011
300.00	0.006
301.00	0.008
302.00	0.015
303.00	-0.012
304.00	0.000
305.00	-0.015
306.00	-0.024
307.00	-0.009
308.00	-0.018
309.00	0.000
310.00	0.009
311.00	0.095
312.00	0.047
313.00	-0.137
314.00	0.237
315.00	0.006
316.00	-0.014
317.00	-0.243
318.00	0.084
319.00	-0.084
320.00	-0.020
321.00	0.018
322.00	0.060
323.00	0.145
324.00	0.194
325.00	0.044
326.00	-0.041
327.00	0.044
328.00	-0.011
329.00	0.034
330.00	0.075
331.00	-0.044
332.00	0.038
333.00	-0.063
334.00	-0.006
335.00	0.055
336.00	-0.096
337.00	-0.027
338.00	0.024
339.00	0.000
340.00	-0.003
341.00	-0.058
342.00	0.014
343.00	0.002
344.00	0.020
345.00	0.078
346.00	-0.003
347.00	0.041
348.00	0.029
349.00	0.069
350.00	0.089
351.00	0.082
352.00	0.093
353.00	0.131
354.00	0.191
355.00	0.175
356.00	0.256
357.00	0.211
358.00	0.243
359.00	0.307
360.00	0.346
361.00	0.368
362.00	0.381
363.00	0.427
364.00	0.461
365.00	0.529
366.00	0.589
367.00	0.586
368.00	0.671
369.00	0.716
370.00	0.809
371.00	0.832
372.00	0.934
373.00	1.003
374.00	1.067
375.00	1.169
376.00	1.309
377.00	1.344
378.00	1.421
379.00	1.558
380.00	1.692
381.00	1.814
382.00	1.950
383.00	2.061
384.00	2.223
385.00	2.412
386.00	2.614
387.00	2.876
388.00	3.166
389.00	3.517
390.00	3.899
391.00	4.335
392.00	4.768
393.00	5.296
394.00	5.853
395.00	6.471
396.00	7.083
397.00	7.764
398.00	8.481
399.00	9.236
400.00	10.022
401.00	10.910
402.00	11.868
403.00	12.863
404.00	14.003
405.00	15.288
406.00	16.669
407.00	18.227
408.00	19.968
409.00	21.771
410.00	23.666
411.00	25.697
412.00	27.707
413.00	29.622
414.00	31.593
415.00	33.565
416.00	35.332
417.00	37.029
418.00	38.544
419.00	39.879
420.00	41.107
421.00	42.163
422.00	43.095
423.00	43.944
424.00	44.720
425.00	45.390
426.00	46.008
427.00	46.603
428.00	47.154
429.00	47.653
430.00	48.100
431.00	48.552
432.00	48.984
433.00	49.417
434.00	49.854
435.00	50.269
436.00	50.694
437.00	51.112
438.00	51.540
439.00	51.967
440.00	52.368
441.00	52.763
442.00	53.197
443.00	53.627
444.00	54.033
445.00	54.460
446.00	54.846
447.00	55.247
448.00	55.637
449.00	56.012
450.00	56.367
451.00	56.741
452.00	57.111
453.00	57.445
454.00	57.774
455.00	58.066
456.00	58.406
457.00	58.707
458.00	59.026
459.00	59.334
460.00	59.633
461.00	59.933
462.00	60.205
463.00	60.486
464.00	60.765
465.00	61.020
466.00	61.290
467.00	61.539
468.00	61.781
469.00	62.032
470.00	62.279
471.00	62.527
472.00	62.730
473.00	62.923
474.00	63.133
475.00	63.313
476.00	63.531
477.00	63.722
478.00	63.913
479.00	64.064
480.00	64.240
481.00	64.450
482.00	64.621
483.00	64.832
484.00	65.062
485.00	65.271
486.00	65.501
487.00	65.746
488.00	66.016
489.00	66.301
490.00	66.611
491.00	66.910
492.00	67.221
493.00	67.552
494.00	67.900
495.00	68.246
496.00	68.611
497.00	68.958
498.00	69.292
499.00	69.614
500.00	69.933
501.00	70.268
502.00	70.576
503.00	70.872
504.00	71.175
505.00	71.469
506.00	71.738
507.00	72.009
508.00	72.284
509.00	72.525
510.00	72.742
511.00	72.989
512.00	73.206
513.00	73.428
514.00	73.631
515.00	73.828
516.00	74.004
517.00	74.173
518.00	74.384
519.00	74.556
520.00	74.713
521.00	74.889
522.00	75.041
523.00	75.179
524.00	75.328
525.00	75.436
526.00	75.583
527.00	75.726
528.00	75.848
529.00	75.977
530.00	76.088
531.00	76.212
532.00	76.326
533.00	76.463
534.00	76.530
535.00	76.653
536.00	76.817
537.00	76.903
538.00	76.974
539.00	77.040
540.00	77.109
541.00	77.245
542.00	77.318
543.00	77.405
544.00	77.495
545.00	77.570
546.00	77.658
547.00	77.750
548.00	77.853
549.00	77.936
550.00	78.052
551.00	78.151
552.00	78.253
553.00	78.374
554.00	78.458
555.00	78.563
556.00	78.664
557.00	78.777
558.00	78.874
559.00	78.946
560.00	79.074
561.00	79.202
562.00	79.276
563.00	79.395
564.00	79.485
565.00	79.581
566.00	79.689
567.00	79.767
568.00	79.877
569.00	79.974
570.00	80.058
571.00	80.157
572.00	80.251
573.00	80.344
574.00	80.466
575.00	80.574
576.00	80.652
577.00	80.728
578.00	80.823
579.00	80.922
580.00	81.046
581.00	81.143
582.00	81.250
583.00	81.342
584.00	81.456
585.00	81.566
586.00	81.699
587.00	81.779
588.00	81.853
589.00	81.966
590.00	82.076
591.00	82.162
592.00	82.263
593.00	82.356
594.00	82.448
595.00	82.558
596.00	82.634
597.00	82.689
598.00	82.784
599.00	82.834
600.00	82.907
601.00	82.997
602.00	83.093
603.00	83.151
604.00	83.231
605.00	83.290
606.00	83.365
607.00	83.406
608.00	83.484
609.00	83.562
610.00	83.604
611.00	83.646
612.00	83.679
613.00	83.734
614.00	83.780
615.00	83.820
616.00	83.865
617.00	83.899
618.00	83.969
619.00	84.027
620.00	84.064
621.00	84.094
622.00	84.152
623.00	84.177
624.00	84.225
625.00	84.259
626.00	84.279
627.00	84.300
628.00	84.332
629.00	84.369
630.00	84.375
631.00	84.402
632.00	84.436
633.00	84.506
634.00	84.521
635.00	84.547
636.00	84.602
637.00	84.625
638.00	84.631
639.00	84.636
640.00	84.657
641.00	84.680
642.00	84.712
643.00	84.714
644.00	84.705
645.00	84.726
646.00	84.747
647.00	84.767
648.00	84.782
649.00	84.807
650.00	84.813
651.00	84.824
652.00	84.837
653.00	84.845
654.00	84.888
655.00	84.908
656.00	84.908
657.00	84.900
658.00	84.932
659.00	84.950
660.00	84.964
661.00	84.976
662.00	84.995
663.00	84.981
664.00	85.005
665.00	85.031
666.00	85.027
667.00	85.051
668.00	85.052
669.00	85.062
670.00	85.095
671.00	85.095
672.00	85.095
673.00	85.109
674.00	85.124
675.00	85.146
676.00	85.115
677.00	85.143
678.00	85.168
679.00	85.167
680.00	85.176
681.00	85.173
682.00	85.207
683.00	85.197
684.00	85.190
685.00	85.211
686.00	85.233
687.00	85.236
688.00	85.257
689.00	85.266
690.00	85.251
691.00	85.257
692.00	85.281
693.00	85.266
694.00	85.284
695.00	85.280
696.00	85.292
697.00	85.321
698.00	85.326
699.00	85.336
700.00	85.330
701.00	85.324
702.00	85.309
703.00	85.324
704.00	85.333
705.00	85.321
706.00	85.350
707.00	85.350
708.00	85.368
709.00	85.373
710.00	85.361
711.00	85.373
712.00	85.403
713.00	85.399
714.00	85.378
715.00	85.385
716.00	85.419
717.00	85.420
718.00	85.413
719.00	85.403
720.00	85.393
721.00	85.406
722.00	85.410
723.00	85.400
724.00	85.414
725.00	85.439
726.00	85.452
727.00	85.455
728.00	85.440
729.00	85.431
730.00	85.445
731.00	85.419
732.00	85.440
733.00	85.445
734.00	85.442
735.00	85.440
736.00	85.454
737.00	85.457
738.00	85.439
739.00	85.431
740.00	85.460
741.00	85.434
742.00	85.449
743.00	85.466
744.00	85.437
745.00	85.425
746.00	85.460
747.00	85.495
748.00	85.480
749.00	85.455
750.00	85.463
751.00	85.484
752.00	85.497
753.00	85.512
754.00	85.516
755.00	85.501
756.00	85.503
757.00	85.519
758.00	85.542
759.00	85.553
760.00	86.552
761.00	85.883
762.00	85.493
763.00	85.498
764.00	85.515
765.00	85.493
766.00	85.509
767.00	85.524
768.00	85.542
769.00	85.538
770.00	85.553
771.00	85.538
772.00	85.550
773.00	85.567
774.00	85.547
775.00	85.538
776.00	85.526
777.00	85.542
778.00	85.555
779.00	85.568
780.00	85.558
781.00	85.577
782.00	85.555
783.00	85.553
784.00	85.573
785.00	85.593
786.00	85.585
787.00	85.590
788.00	85.609
789.00	85.580
790.00	85.593
791.00	85.593
792.00	85.585
793.00	85.606
794.00	85.617
795.00	85.594
796.00	85.603
797.00	85.594
798.00	85.603
799.00	85.631
800.00	85.611
801.00	85.628
802.00	85.643
803.00	85.632
804.00	85.628
805.00	85.608
806.00	85.606
807.00	85.616
808.00	85.616
809.00	85.622
810.00	85.594
811.00	85.603
812.00	85.616
813.00	85.617
814.00	85.625
815.00	85.626
816.00	85.629
817.00	85.629
818.00	85.614
819.00	85.626
820.00	85.638
821.00	85.632
822.00	85.623
823.00	85.641
824.00	85.638
825.00	85.637
826.00	85.652
827.00	85.667
828.00	85.669
829.00	85.669
830.00	85.674
831.00	85.628
832.00	85.612
833.00	85.641
834.00	85.660
835.00	85.658
836.00	85.631
837.00	85.623
838.00	85.649
839.00	85.663
840.00	85.638
841.00	85.619
842.00	85.646
843.00	85.654
844.00	85.640
845.00	85.640
846.00	85.638
847.00	85.628
848.00	85.628
849.00	85.666
850.00	85.641
851.00	85.611
852.00	85.638
853.00	85.631
854.00	85.622
855.00	85.634
856.00	85.588
857.00	85.608
858.00	85.619
859.00	85.588
860.00	85.551
861.00	85.571
862.00	85.553
863.00	85.504
864.00	85.503
865.00	85.492
866.00	85.474
867.00	85.442
868.00	85.451
869.00	85.457
870.00	85.442
871.00	85.448
872.00	85.457
873.00	85.458
874.00	85.493
875.00	85.503
876.00	85.501
877.00	85.486
878.00	85.478
879.00	85.504
880.00	85.500
881.00	85.460
882.00	85.437
883.00	85.431
884.00	85.428
885.00	85.411
886.00	85.382
887.00	85.352
888.00	85.329
889.00	85.315
890.00	85.312
891.00	85.312
892.00	85.283
893.00	85.251
894.00	85.236
895.00	85.226
896.00	85.216
897.00	85.193
898.00	85.187
899.00	85.153
900.00	85.139
901.00	85.164
902.00	85.118
903.00	85.127
904.00	85.129
905.00	85.139
906.00	85.146
907.00	85.136
908.00	85.139
909.00	85.147
910.00	85.158
911.00	85.181
912.00	85.205
913.00	85.226
914.00	85.228
915.00	85.237
916.00	85.248
917.00	85.284
918.00	85.287
919.00	85.310
920.00	85.339
921.00	85.393
922.00	85.410
923.00	85.426
924.00	85.443
925.00	85.445
926.00	85.426
927.00	85.454
928.00	85.457
929.00	85.474
930.00	85.480
931.00	85.518
932.00	85.475
933.00	85.469
934.00	85.472
935.00	85.439
936.00	85.434
937.00	85.477
938.00	85.512
939.00	85.498
940.00	85.519
941.00	85.477
942.00	85.481
943.00	85.541
944.00	85.512
945.00	85.521
946.00	85.553
947.00	85.483
948.00	85.510
949.00	85.542
950.00	85.519
951.00	85.500
952.00	85.515
953.00	85.490
954.00	85.451
955.00	85.480
956.00	85.440
957.00	85.350
958.00	85.355
959.00	85.352
960.00	85.265
961.00	85.294
962.00	85.295
963.00	85.213
964.00	85.229
965.00	85.182
966.00	85.229
967.00	85.165
968.00	85.181
969.00	85.161
970.00	85.139
971.00	85.162
972.00	85.123
973.00	85.149
974.00	85.115
975.00	85.152
976.00	85.129
977.00	85.112
978.00	85.103
979.00	85.109
980.00	85.132
981.00	85.110
982.00	85.110
983.00	85.124
984.00	85.147
985.00	85.139
986.00	85.106
987.00	85.153
988.00	85.139
989.00	85.109
990.00	85.146
991.00	85.138
992.00	85.156
993.00	85.150
994.00	85.156
995.00	85.175
996.00	85.187
997.00	85.170
998.00	85.187
999.00	85.185
1000.00	85.191
1001.00	85.193
1002.00	85.201
1003.00	85.201
1004.00	85.176
1005.00	85.187
1006.00	85.185
1007.00	85.185
1008.00	85.179
1009.00	85.184
1010.00	85.184
1011.00	85.181
1012.00	85.172
1013.00	85.188
1014.00	85.168
1015.00	85.146
1016.00	85.175
1017.00	85.161
1018.00	85.149
1019.00	85.168
1020.00	85.184
1021.00	85.199
1022.00	85.199
1023.00	85.176
1024.00	85.220
1025.00	85.236
1026.00	85.252
1027.00	85.217
1028.00	85.190
1029.00	85.178
1030.00	85.208
1031.00	85.226
1032.00	85.255
1033.00	85.271
1034.00	85.295
1035.00	85.278
1036.00	85.297
1037.00	85.275
1038.00	85.286
1039.00	85.312
1040.00	85.332
1041.00	85.356
1042.00	85.361
1043.00	85.393
1044.00	85.378
1045.00	85.384
1046.00	85.381
1047.00	85.399
1048.00	85.402
1049.00	85.408
1050.00	85.402
1051.00	85.414
1052.00	85.402
1053.00	85.411
1054.00	85.432
1055.00	85.429
1056.00	85.457
1057.00	85.443
1058.00	85.474
1059.00	85.507
1060.00	85.495
1061.00	85.501
1062.00	85.513
1063.00	85.539
1064.00	85.551
1065.00	85.564
1066.00	85.553
1067.00	85.559
1068.00	85.558
1069.00	85.550
1070.00	85.553
1071.00	85.593
1072.00	85.583
1073.00	85.597
1074.00	85.580
1075.00	85.577
1076.00	85.573
1077.00	85.564
1078.00	85.541
1079.00	85.526
1080.00	85.574
1081.00	85.612
1082.00	85.623
1083.00	85.585
1084.00	85.495
1085.00	85.468
1086.00	85.542
1087.00	85.527
1088.00	85.486
1089.00	85.440
1090.00	85.390
1091.00	85.403
1092.00	85.477
1093.00	85.526
1094.00	85.432
1095.00	85.390
1096.00	85.408
1097.00	85.428
1098.00	85.478
1099.00	85.381
1100.00	85.323